wavelength flux
23.8490009308	1148057.00881
23.8665008545	1387706.19012
23.8840007782	1478962.66072
23.9015007019	1222457.11224
23.9190006256	1067882.96338
23.9365005493	1065229.6631
23.954000473	1078290.37118
23.9715003967	1044753.428
23.9890003204	1008042.26163
24.0065002441	1005643.52734
24.0240001678	1033061.23346
24.0415000916	1017697.63923
24.0590000153	1057833.73646
24.076499939	1078679.36835
24.0939998627	1075557.26608
24.1114997864	1055727.2817
24.1289997101	1052435.08317
24.1464996338	1045767.05055
24.1639995575	1024370.81065
24.1814994812	1011092.64161
24.1989994049	1014096.11869
24.2164993286	1012042.85768
24.2339992523	1010668.32918
24.251499176	1012817.50181
24.2689990997	1020794.7103
24.2864990234	1026930.15331
24.3039989471	1040317.84417
24.3214988708	1032682.49423
24.3389987946	1015109.77874
24.3564987183	1010107.55525
24.373998642	1004121.42717
24.3914985657	993143.809617
24.4089984894	1010024.38974
24.4264984131	1022642.401
24.4439983368	1052014.93766
24.4614982605	1056658.91298
24.4789981842	1045092.86046
24.4964981079	1035436.72442
24.5139980316	1022467.94757
24.5314979553	1014819.83059
24.548997879	1015678.87163
24.5664978027	998188.527719
24.5839977264	994854.986155
24.6014976501	992976.544895
24.6189975739	966528.453484
24.6364974976	979783.193718
24.6539974213	1001093.25447
24.671497345	1008725.04109
24.6889972687	1007417.0421
24.7064971924	1002088.79712
24.7239971161	989635.464294
24.7414970398	974286.475713
24.7589969635	967437.242523
24.7764968872	967550.27662
24.7939968109	968644.915779
24.8114967346	993156.826608
24.8289966583	997335.08158
24.846496582	977049.405423
24.8639965057	992540.832951
24.8814964294	1024224.47518
24.8989963531	1003236.74607
24.9164962769	993123.632977
24.9339962006	992141.243461
24.9514961243	1010096.70406
24.968996048	1070980.1884
24.9864959717	1105766.93625
25.0039958954	1064798.22191
25.0214958191	1016541.79899
25.0389957428	1002452.62479
25.0564956665	994539.338563
25.0739955902	994442.881868
25.0914955139	1003275.88574
25.1089954376	1010991.16086
25.1264953613	1004206.43242
25.143995285	1003503.53967
25.1614952087	1029804.27646
25.1789951324	1046858.36274
25.1964950562	1014455.51828
25.2139949799	985553.736837
25.2314949036	976604.862834
25.2489948273	978092.486344
25.266494751	973112.04448
25.2839946747	972105.193118
25.3014945984	983068.208654
25.3189945221	984048.915556
25.3364944458	982220.456996
25.3539943695	991102.131116
25.3714942932	980967.678388
25.3889942169	969674.101899
25.4064941406	967275.135566
25.4239940643	958667.744939
25.441493988	960282.325547
25.4589939117	981967.963893
25.4764938354	994522.024652
25.4939937592	1010151.8588
25.5114936829	988708.521863
25.5289936066	974878.258763
25.5464935303	975681.280988
25.563993454	959355.403928
25.5814933777	955088.722495
25.5989933014	976981.804083
25.6164932251	970923.443541
25.6339931488	966514.459147
25.6514930725	963535.290939
25.6689929962	962356.347622
25.6864929199	968015.157053
25.7039928436	969285.238366
25.7214927673	968556.784776
25.738992691	969165.554714
25.7564926147	970277.430923
25.7739925385	973618.931176
25.7914924622	980858.112784
25.8089923859	983869.957626
25.8264923096	980056.399262
25.8439922333	987045.017224
25.861492157	998962.223007
25.8789920807	988190.134237
25.8964920044	973526.099384
25.9139919281	983763.617112
25.9314918518	987132.798501
25.9489917755	977737.278287
25.9664916992	973729.859191
25.9839916229	980433.576027
26.0014915466	988831.867354
26.0189914703	1007862.97938
26.036491394	1035454.81131
26.0539913177	996458.117436
26.0714912415	959964.931487
26.0889911652	965783.050436
26.1064910889	972781.44391
26.1239910126	974717.270198
26.1414909363	1053804.32131
26.15899086	1234445.98085
26.1764907837	1302910.95255
26.1939907074	1068149.08338
26.2114906311	1020960.80194
26.2289905548	993866.455876
26.2464904785	966619.149923
26.2639904022	951711.594697
26.2814903259	956616.084776
26.2989902496	966761.721224
26.3164901733	955336.594028
26.333990097	933535.04841
26.3514900208	924094.088107
26.3689899445	937363.86919
26.3864898682	945308.230654
26.4039897919	941008.499457
26.4214897156	937359.422687
26.4389896393	925713.328537
26.456489563	926416.977828
26.4739894867	923609.513971
26.4914894104	925262.518093
26.5089893341	923994.515731
26.5264892578	931616.762156
26.5439891815	938902.730802
26.5614891052	929081.755405
26.5789890289	927805.838939
26.5964889526	936892.91269
26.6139888763	925080.512036
26.6314888	928572.905445
26.6489887238	958031.636027
26.6664886475	1068605.36598
26.6839885712	1148656.80628
26.7014884949	1076413.44013
26.7189884186	964131.757108
26.7364883423	947646.713069
26.753988266	950451.638787
26.7714881897	952149.024835
26.7889881134	951167.596145
26.8064880371	949385.995327
26.8239879608	940906.431012
26.8414878845	931263.624264
26.8589878082	931629.94148
26.8764877319	931135.749809
26.8939876556	935077.255869
26.9114875793	932195.120809
26.9289875031	937432.405233
26.9464874268	940197.269114
26.9639873505	931977.217585
26.9814872742	924356.051847
26.9989871979	927800.863572
27.0164871216	940482.789562
27.0339870453	955680.025572
27.051486969	955379.907869
27.0689868927	1002294.25711
27.0864868164	1031925.92597
27.1039867401	1013805.92289
27.1214866638	1000513.333
27.1389865875	978178.954889
27.1564865112	950509.360133
27.1739864349	938943.60889
27.1914863586	938831.990099
27.2089862823	938522.817522
27.2264862061	936368.716829
27.2439861298	930183.344333
27.2614860535	928895.268507
27.2789859772	919043.508196
27.2964859009	928970.410167
27.3139858246	955140.241319
27.3314857483	969476.074416
27.348985672	962193.221293
27.3664855957	951351.050801
27.3839855194	945923.81121
27.4014854431	949621.040573
27.4189853668	938556.450371
27.4364852905	935444.39648
27.4539852142	933755.65007
27.4714851379	940087.355656
27.4889850616	946894.090479
27.5064849854	943250.822754
27.5239849091	943045.540079
27.5414848328	943778.835021
27.5589847565	944531.026891
27.5764846802	946661.660592
27.5939846039	946322.179417
27.6114845276	954673.016258
27.6289844513	955480.013064
27.646484375	950640.921235
27.6639842987	942001.66769
27.6814842224	931817.379395
27.6989841461	960460.237778
27.7164840698	953705.263457
27.7339839935	966047.839202
27.7514839172	1037364.8893
27.7689838409	1193670.56434
27.7864837646	1581175.85773
27.8039836884	1714511.23131
27.8214836121	1480799.07996
27.8389835358	1031350.04584
27.8564834595	954485.295487
27.8739833832	929290.447216
27.8914833069	932685.701229
27.9089832306	939006.669873
27.9264831543	937785.625647
27.943983078	944961.117504
27.9614830017	936295.184549
27.9789829254	953161.95976
27.9964828491	969819.506043
28.0139827728	964068.340957
28.0314826965	922629.78146
28.0489826202	938586.401924
28.0664825439	937718.758599
28.0839824677	933487.67376
28.1014823914	928238.420372
28.1189823151	915971.797261
28.1364822388	912475.679477
28.1539821625	917577.805961
28.1714820862	921485.716017
28.1889820099	918051.898379
28.2064819336	907222.788619
28.2239818573	917009.200644
28.241481781	929178.012404
28.2589817047	924751.976969
28.2764816284	915627.502541
28.2939815521	916235.257902
28.3114814758	925898.305782
28.3289813995	929725.279072
28.3464813232	943558.06024
28.3639812469	972099.003723
28.3814811707	1001121.23523
28.3989810944	1001510.04349
28.4164810181	952697.981385
28.4339809418	946628.939268
28.4514808655	943553.981925
28.4689807892	936568.622025
28.4864807129	931298.630555
28.5039806366	937631.999447
28.5214805603	941183.801773
28.538980484	927168.513912
28.5564804077	918711.410786
28.5739803314	917597.869474
28.5914802551	910143.975039
28.6089801788	898934.47813
28.6264801025	887666.861645
28.6439800262	895365.306254
28.66147995	899203.911477
28.6789798737	896229.643773
28.6964797974	923033.052741
28.7139797211	935395.602275
28.7314796448	941662.279781
28.7489795685	948059.120248
28.7664794922	965518.835728
28.7839794159	991285.05783
